img,pos,trials_2.thisRepN,trials_2.thisTrialN,trials_2.thisN,trials_2.thisIndex,trials_3.thisRepN,trials_3.thisTrialN,trials_3.thisN,trials_3.thisIndex,trials.thisRepN,trials.thisTrialN,trials.thisN,trials.thisIndex,key_resp_6_2.keys,key_resp_6_2.rt,key_resp_6.keys,key_resp_6.rt,participant,session,date,expName,psychopyVersion,frameRate,
12,"[-0.15, 0.3]",0,0,0,2,,,,,,,,,,,,,I_V_DominikaD,001,2019_May_20_1207,with_training,3.0.7,59.94893232600368,
31,"[-0.3, 0]",0,1,1,6,,,,,,,,,,,,,I_V_DominikaD,001,2019_May_20_1207,with_training,3.0.7,59.94893232600368,
13,"[0.15, 0.3]",0,2,2,4,,,,,,,,,,,,,I_V_DominikaD,001,2019_May_20_1207,with_training,3.0.7,59.94893232600368,
34,"[-0.15, -0.3]",0,3,3,9,,,,,,,,,,,,,I_V_DominikaD,001,2019_May_20_1207,with_training,3.0.7,59.94893232600368,
14,"[0.15, -0.3]",0,4,4,5,,,,,,,,,,,,,I_V_DominikaD,001,2019_May_20_1207,with_training,3.0.7,59.94893232600368,
33,"[-0.15, 0.3]",0,5,5,8,,,,,,,,,,,,,I_V_DominikaD,001,2019_May_20_1207,with_training,3.0.7,59.94893232600368,
11,"[-0.3, 0]",0,6,6,0,,,,,,,,,,,,,I_V_DominikaD,001,2019_May_20_1207,with_training,3.0.7,59.94893232600368,
32,"[0.3, 0]",0,7,7,7,,,,,,,,,,,,,I_V_DominikaD,001,2019_May_20_1207,with_training,3.0.7,59.94893232600368,
12,"[0.3, 0]",0,8,8,1,,,,,,,,,,,,,I_V_DominikaD,001,2019_May_20_1207,with_training,3.0.7,59.94893232600368,
13,"[-0.15, -0.3]",0,9,9,3,,,,,,,,,,,,,I_V_DominikaD,001,2019_May_20_1207,with_training,3.0.7,59.94893232600368,
14,"[0.15, -0.3]",,,,,0,0,0,11,,,,,lalt,1.144221556634875,,,I_V_DominikaD,001,2019_May_20_1207,with_training,3.0.7,59.94893232600368,
34,"[0.15, -0.3]",,,,,0,1,1,47,,,,,lalt,1.126901349867694,,,I_V_DominikaD,001,2019_May_20_1207,with_training,3.0.7,59.94893232600368,
33,"[0.15, -0.3]",,,,,0,2,2,29,,,,,ralt,0.996474258165108,,,I_V_DominikaD,001,2019_May_20_1207,with_training,3.0.7,59.94893232600368,
34,"[-0.15, -0.3]",,,,,0,3,3,33,,,,,ralt,0.9215274914167821,,,I_V_DominikaD,001,2019_May_20_1207,with_training,3.0.7,59.94893232600368,
13,"[-0.15, 0.3]",,,,,0,4,4,2,,,,,lalt,1.5826095198572148,,,I_V_DominikaD,001,2019_May_20_1207,with_training,3.0.7,59.94893232600368,
33,"[0.15, 0.3]",,,,,0,5,5,28,,,,,ralt,1.1452007952320855,,,I_V_DominikaD,001,2019_May_20_1207,with_training,3.0.7,59.94893232600368,
23,"[-0.15, -0.3]",,,,,0,6,6,15,,,,,lalt,1.178974262700649,,,I_V_DominikaD,001,2019_May_20_1207,with_training,3.0.7,59.94893232600368,
13,"[-0.15, -0.3]",,,,,0,7,7,3,,,,,lalt,1.2661892828473356,,,I_V_DominikaD,001,2019_May_20_1207,with_training,3.0.7,59.94893232600368,
33,"[-0.3, 0]",,,,,0,8,8,36,,,,,ralt,0.9127077033335809,,,I_V_DominikaD,001,2019_May_20_1207,with_training,3.0.7,59.94893232600368,
34,"[0.3, 0]",,,,,0,9,9,43,,,,,ralt,0.9580116747820284,,,I_V_DominikaD,001,2019_May_20_1207,with_training,3.0.7,59.94893232600368,
34,"[-0.3, 0]",,,,,0,10,10,42,,,,,ralt,0.8379668061097618,,,I_V_DominikaD,001,2019_May_20_1207,with_training,3.0.7,59.94893232600368,
34,"[-0.3, 0]",,,,,0,11,11,30,,,,,ralt,0.8727116637455765,,,I_V_DominikaD,001,2019_May_20_1207,with_training,3.0.7,59.94893232600368,
24,"[0.15, 0.3]",,,,,0,12,12,22,,,,,lalt,0.791377508547157,,,I_V_DominikaD,001,2019_May_20_1207,with_training,3.0.7,59.94893232600368,
34,"[0.15, 0.3]",,,,,0,13,13,34,,,,,ralt,1.1269737966358662,,,I_V_DominikaD,001,2019_May_20_1207,with_training,3.0.7,59.94893232600368,
34,"[0.15, -0.3]",,,,,0,14,14,35,,,,,ralt,1.5097492195491213,,,I_V_DominikaD,001,2019_May_20_1207,with_training,3.0.7,59.94893232600368,
24,"[-0.15, -0.3]",,,,,0,15,15,21,,,,,lalt,0.759566140564857,,,I_V_DominikaD,001,2019_May_20_1207,with_training,3.0.7,59.94893232600368,
14,"[-0.15, 0.3]",,,,,0,16,16,8,,,,,lalt,1.2487211639236193,,,I_V_DominikaD,001,2019_May_20_1207,with_training,3.0.7,59.94893232600368,
24,"[-0.3, 0]",,,,,0,17,17,18,,,,,lalt,0.8597068683884572,,,I_V_DominikaD,001,2019_May_20_1207,with_training,3.0.7,59.94893232600368,
33,"[0.15, -0.3]",,,,,0,18,18,41,,,,,ralt,0.8718392841110472,,,I_V_DominikaD,001,2019_May_20_1207,with_training,3.0.7,59.94893232600368,
33,"[0.15, 0.3]",,,,,0,19,19,40,,,,,lalt,1.0249458309845068,,,I_V_DominikaD,001,2019_May_20_1207,with_training,3.0.7,59.94893232600368,
24,"[0.15, -0.3]",,,,,0,20,20,23,,,,,lalt,0.7745861630246509,,,I_V_DominikaD,001,2019_May_20_1207,with_training,3.0.7,59.94893232600368,
33,"[0.3, 0]",,,,,0,21,21,37,,,,,ralt,1.049149686441524,,,I_V_DominikaD,001,2019_May_20_1207,with_training,3.0.7,59.94893232600368,
14,"[0.3, 0]",,,,,0,22,22,7,,,,,lalt,1.1098087466380093,,,I_V_DominikaD,001,2019_May_20_1207,with_training,3.0.7,59.94893232600368,
34,"[-0.15, -0.3]",,,,,0,23,23,45,,,,,ralt,1.1744143434916623,,,I_V_DominikaD,001,2019_May_20_1207,with_training,3.0.7,59.94893232600368,
23,"[0.15, 0.3]",,,,,0,24,24,16,,,,,lalt,0.7612487163278274,,,I_V_DominikaD,001,2019_May_20_1207,with_training,3.0.7,59.94893232600368,
33,"[-0.15, 0.3]",,,,,0,25,25,26,,,,,ralt,1.1800494932103902,,,I_V_DominikaD,001,2019_May_20_1207,with_training,3.0.7,59.94893232600368,
33,"[0.3, 0]",,,,,0,26,26,25,,,,,ralt,0.6726698861166369,,,I_V_DominikaD,001,2019_May_20_1207,with_training,3.0.7,59.94893232600368,
24,"[-0.15, 0.3]",,,,,0,27,27,20,,,,,lalt,0.8062677306006663,,,I_V_DominikaD,001,2019_May_20_1207,with_training,3.0.7,59.94893232600368,
34,"[-0.15, 0.3]",,,,,0,28,28,32,,,,,ralt,0.8103808948362712,,,I_V_DominikaD,001,2019_May_20_1207,with_training,3.0.7,59.94893232600368,
34,"[0.15, 0.3]",,,,,0,29,29,46,,,,,ralt,1.6104689176136162,,,I_V_DominikaD,001,2019_May_20_1207,with_training,3.0.7,59.94893232600368,
33,"[-0.15, 0.3]",,,,,0,30,30,38,,,,,ralt,0.9434378035657573,,,I_V_DominikaD,001,2019_May_20_1207,with_training,3.0.7,59.94893232600368,
14,"[-0.15, -0.3]",,,,,0,31,31,9,,,,,lalt,0.9593555619940162,,,I_V_DominikaD,001,2019_May_20_1207,with_training,3.0.7,59.94893232600368,
23,"[0.15, -0.3]",,,,,0,32,32,17,,,,,lalt,0.9031229982792865,,,I_V_DominikaD,001,2019_May_20_1207,with_training,3.0.7,59.94893232600368,
23,"[-0.15, 0.3]",,,,,0,33,33,14,,,,,lalt,0.8253604678611737,,,I_V_DominikaD,001,2019_May_20_1207,with_training,3.0.7,59.94893232600368,
13,"[-0.3, 0]",,,,,0,34,34,0,,,,,lalt,0.7072855470469221,,,I_V_DominikaD,001,2019_May_20_1207,with_training,3.0.7,59.94893232600368,
13,"[0.15, -0.3]",,,,,0,35,35,5,,,,,lalt,0.7366808159276843,,,I_V_DominikaD,001,2019_May_20_1207,with_training,3.0.7,59.94893232600368,
33,"[-0.15, -0.3]",,,,,0,36,36,39,,,,,ralt,0.8773899126099423,,,I_V_DominikaD,001,2019_May_20_1207,with_training,3.0.7,59.94893232600368,
13,"[0.3, 0]",,,,,0,37,37,1,,,,,lalt,0.7917892475670669,,,I_V_DominikaD,001,2019_May_20_1207,with_training,3.0.7,59.94893232600368,
34,"[0.3, 0]",,,,,0,38,38,31,,,,,ralt,0.974568172096042,,,I_V_DominikaD,001,2019_May_20_1207,with_training,3.0.7,59.94893232600368,
24,"[0.3, 0]",,,,,0,39,39,19,,,,,lalt,0.6412376561202109,,,I_V_DominikaD,001,2019_May_20_1207,with_training,3.0.7,59.94893232600368,
23,"[-0.3, 0]",,,,,0,40,40,12,,,,,lalt,0.7429396114021074,,,I_V_DominikaD,001,2019_May_20_1207,with_training,3.0.7,59.94893232600368,
33,"[-0.15, -0.3]",,,,,0,41,41,27,,,,,ralt,0.7383440725388937,,,I_V_DominikaD,001,2019_May_20_1207,with_training,3.0.7,59.94893232600368,
14,"[0.15, 0.3]",,,,,0,42,42,10,,,,,lalt,1.1646340322040487,,,I_V_DominikaD,001,2019_May_20_1207,with_training,3.0.7,59.94893232600368,
13,"[0.15, 0.3]",,,,,0,43,43,4,,,,,lalt,1.0948605671874247,,,I_V_DominikaD,001,2019_May_20_1207,with_training,3.0.7,59.94893232600368,
34,"[-0.15, 0.3]",,,,,0,44,44,44,,,,,ralt,0.844297444622498,,,I_V_DominikaD,001,2019_May_20_1207,with_training,3.0.7,59.94893232600368,
33,"[-0.3, 0]",,,,,0,45,45,24,,,,,ralt,1.3632123854767997,,,I_V_DominikaD,001,2019_May_20_1207,with_training,3.0.7,59.94893232600368,
23,"[0.3, 0]",,,,,0,46,46,13,,,,,lalt,0.7760755474446341,,,I_V_DominikaD,001,2019_May_20_1207,with_training,3.0.7,59.94893232600368,
14,"[-0.3, 0]",,,,,0,47,47,6,,,,,lalt,0.9931163512810599,,,I_V_DominikaD,001,2019_May_20_1207,with_training,3.0.7,59.94893232600368,
33,"[-0.15, -0.3]",,,,,1,0,48,39,,,,,ralt,0.8639788117434364,,,I_V_DominikaD,001,2019_May_20_1207,with_training,3.0.7,59.94893232600368,
13,"[0.15, -0.3]",,,,,1,1,49,5,,,,,lalt,0.8471156231826171,,,I_V_DominikaD,001,2019_May_20_1207,with_training,3.0.7,59.94893232600368,
34,"[-0.3, 0]",,,,,1,2,50,30,,,,,ralt,0.7909035860502627,,,I_V_DominikaD,001,2019_May_20_1207,with_training,3.0.7,59.94893232600368,
34,"[-0.15, -0.3]",,,,,1,3,51,45,,,,,ralt,1.4551823273359332,,,I_V_DominikaD,001,2019_May_20_1207,with_training,3.0.7,59.94893232600368,
34,"[-0.15, 0.3]",,,,,1,4,52,44,,,,,ralt,0.8233748232014477,,,I_V_DominikaD,001,2019_May_20_1207,with_training,3.0.7,59.94893232600368,
23,"[0.15, -0.3]",,,,,1,5,53,17,,,,,lalt,0.7398533798404969,,,I_V_DominikaD,001,2019_May_20_1207,with_training,3.0.7,59.94893232600368,
33,"[0.3, 0]",,,,,1,6,54,37,,,,,ralt,0.8438567268894985,,,I_V_DominikaD,001,2019_May_20_1207,with_training,3.0.7,59.94893232600368,
24,"[0.15, -0.3]",,,,,1,7,55,23,,,,,lalt,0.7090164206456393,,,I_V_DominikaD,001,2019_May_20_1207,with_training,3.0.7,59.94893232600368,
14,"[-0.15, -0.3]",,,,,1,8,56,9,,,,,lalt,0.7706655864021741,,,I_V_DominikaD,001,2019_May_20_1207,with_training,3.0.7,59.94893232600368,
33,"[0.15, -0.3]",,,,,1,9,57,41,,,,,ralt,0.8400719879427925,,,I_V_DominikaD,001,2019_May_20_1207,with_training,3.0.7,59.94893232600368,
34,"[-0.15, 0.3]",,,,,1,10,58,32,,,,,ralt,0.7951725108141545,,,I_V_DominikaD,001,2019_May_20_1207,with_training,3.0.7,59.94893232600368,
34,"[0.15, -0.3]",,,,,1,11,59,35,,,,,ralt,1.4998928392014932,,,I_V_DominikaD,001,2019_May_20_1207,with_training,3.0.7,59.94893232600368,
13,"[-0.15, -0.3]",,,,,1,12,60,3,,,,,lalt,0.7283301205316093,,,I_V_DominikaD,001,2019_May_20_1207,with_training,3.0.7,59.94893232600368,
14,"[0.3, 0]",,,,,1,13,61,7,,,,,lalt,1.19648584962124,,,I_V_DominikaD,001,2019_May_20_1207,with_training,3.0.7,59.94893232600368,
14,"[-0.3, 0]",,,,,1,14,62,6,,,,,lalt,0.6232358461711556,,,I_V_DominikaD,001,2019_May_20_1207,with_training,3.0.7,59.94893232600368,
23,"[-0.15, -0.3]",,,,,1,15,63,15,,,,,lalt,0.7396583773661405,,,I_V_DominikaD,001,2019_May_20_1207,with_training,3.0.7,59.94893232600368,
34,"[0.15, 0.3]",,,,,1,16,64,46,,,,,ralt,0.9939259437087458,,,I_V_DominikaD,001,2019_May_20_1207,with_training,3.0.7,59.94893232600368,
33,"[0.15, -0.3]",,,,,1,17,65,29,,,,,ralt,0.9460893546056468,,,I_V_DominikaD,001,2019_May_20_1207,with_training,3.0.7,59.94893232600368,
13,"[-0.3, 0]",,,,,1,18,66,0,,,,,lalt,0.7436713235802017,,,I_V_DominikaD,001,2019_May_20_1207,with_training,3.0.7,59.94893232600368,
33,"[-0.15, 0.3]",,,,,1,19,67,26,,,,,ralt,1.2939979678485543,,,I_V_DominikaD,001,2019_May_20_1207,with_training,3.0.7,59.94893232600368,
23,"[-0.15, 0.3]",,,,,1,20,68,14,,,,,lalt,0.7215648014971521,,,I_V_DominikaD,001,2019_May_20_1207,with_training,3.0.7,59.94893232600368,
33,"[-0.3, 0]",,,,,1,21,69,24,,,,,None,,,,I_V_DominikaD,001,2019_May_20_1207,with_training,3.0.7,59.94893232600368,
34,"[0.15, -0.3]",,,,,1,22,70,47,,,,,ralt,0.8595945759152528,,,I_V_DominikaD,001,2019_May_20_1207,with_training,3.0.7,59.94893232600368,
34,"[0.3, 0]",,,,,1,23,71,43,,,,,ralt,0.7587788858800195,,,I_V_DominikaD,001,2019_May_20_1207,with_training,3.0.7,59.94893232600368,
34,"[0.3, 0]",,,,,1,24,72,31,,,,,ralt,0.6244300101243425,,,I_V_DominikaD,001,2019_May_20_1207,with_training,3.0.7,59.94893232600368,
33,"[-0.3, 0]",,,,,1,25,73,36,,,,,ralt,0.7452410031692125,,,I_V_DominikaD,001,2019_May_20_1207,with_training,3.0.7,59.94893232600368,
34,"[-0.3, 0]",,,,,1,26,74,42,,,,,ralt,0.6229527001269162,,,I_V_DominikaD,001,2019_May_20_1207,with_training,3.0.7,59.94893232600368,
34,"[0.15, 0.3]",,,,,1,27,75,34,,,,,ralt,0.7211216688738205,,,I_V_DominikaD,001,2019_May_20_1207,with_training,3.0.7,59.94893232600368,
24,"[0.15, 0.3]",,,,,1,28,76,22,,,,,lalt,1.110183658573078,,,I_V_DominikaD,001,2019_May_20_1207,with_training,3.0.7,59.94893232600368,
13,"[0.3, 0]",,,,,1,29,77,1,,,,,lalt,0.7575195198878646,,,I_V_DominikaD,001,2019_May_20_1207,with_training,3.0.7,59.94893232600368,
24,"[-0.15, -0.3]",,,,,1,30,78,21,,,,,lalt,1.046317018539412,,,I_V_DominikaD,001,2019_May_20_1207,with_training,3.0.7,59.94893232600368,
14,"[-0.15, 0.3]",,,,,1,31,79,8,,,,,lalt,0.9087164911034051,,,I_V_DominikaD,001,2019_May_20_1207,with_training,3.0.7,59.94893232600368,
33,"[0.15, 0.3]",,,,,1,32,80,28,,,,,ralt,1.0652715032629203,,,I_V_DominikaD,001,2019_May_20_1207,with_training,3.0.7,59.94893232600368,
34,"[-0.15, -0.3]",,,,,1,33,81,33,,,,,ralt,0.6706631111446768,,,I_V_DominikaD,001,2019_May_20_1207,with_training,3.0.7,59.94893232600368,
33,"[-0.15, -0.3]",,,,,1,34,82,27,,,,,ralt,0.7234749808267225,,,I_V_DominikaD,001,2019_May_20_1207,with_training,3.0.7,59.94893232600368,
33,"[-0.15, 0.3]",,,,,1,35,83,38,,,,,ralt,0.8757646905432921,,,I_V_DominikaD,001,2019_May_20_1207,with_training,3.0.7,59.94893232600368,
23,"[0.3, 0]",,,,,1,36,84,13,,,,,lalt,0.9581764911708888,,,I_V_DominikaD,001,2019_May_20_1207,with_training,3.0.7,59.94893232600368,
23,"[-0.3, 0]",,,,,1,37,85,12,,,,,lalt,0.5854301133367699,,,I_V_DominikaD,001,2019_May_20_1207,with_training,3.0.7,59.94893232600368,
24,"[0.3, 0]",,,,,1,38,86,19,,,,,lalt,0.7055927079927642,,,I_V_DominikaD,001,2019_May_20_1207,with_training,3.0.7,59.94893232600368,
33,"[0.3, 0]",,,,,1,39,87,25,,,,,ralt,1.1396380922815297,,,I_V_DominikaD,001,2019_May_20_1207,with_training,3.0.7,59.94893232600368,
14,"[0.15, -0.3]",,,,,1,40,88,11,,,,,lalt,0.7575328017701395,,,I_V_DominikaD,001,2019_May_20_1207,with_training,3.0.7,59.94893232600368,
13,"[0.15, 0.3]",,,,,1,41,89,4,,,,,lalt,0.6892402690427843,,,I_V_DominikaD,001,2019_May_20_1207,with_training,3.0.7,59.94893232600368,
23,"[0.15, 0.3]",,,,,1,42,90,16,,,,,lalt,0.6389839584880974,,,I_V_DominikaD,001,2019_May_20_1207,with_training,3.0.7,59.94893232600368,
14,"[0.15, 0.3]",,,,,1,43,91,10,,,,,lalt,0.6933806008019019,,,I_V_DominikaD,001,2019_May_20_1207,with_training,3.0.7,59.94893232600368,
24,"[-0.15, 0.3]",,,,,1,44,92,20,,,,,lalt,0.9920205942180473,,,I_V_DominikaD,001,2019_May_20_1207,with_training,3.0.7,59.94893232600368,
24,"[-0.3, 0]",,,,,1,45,93,18,,,,,lalt,0.5701595458376687,,,I_V_DominikaD,001,2019_May_20_1207,with_training,3.0.7,59.94893232600368,
13,"[-0.15, 0.3]",,,,,1,46,94,2,,,,,lalt,0.6544054566766135,,,I_V_DominikaD,001,2019_May_20_1207,with_training,3.0.7,59.94893232600368,
33,"[0.15, 0.3]",,,,,1,47,95,40,,,,,ralt,0.8737512746010907,,,I_V_DominikaD,001,2019_May_20_1207,with_training,3.0.7,59.94893232600368,
32,"[-0.15, 0.3]",,,,,,,,,0,0,0,44,,,ralt,0.7722902047971729,I_V_DominikaD,001,2019_May_20_1207,with_training,3.0.7,59.94893232600368,
32,"[0.15, -0.3]",,,,,,,,,0,1,1,47,,,ralt,0.7175802302372176,I_V_DominikaD,001,2019_May_20_1207,with_training,3.0.7,59.94893232600368,
21,"[-0.15, 0.3]",,,,,,,,,0,2,2,8,,,lalt,0.703446473024087,I_V_DominikaD,001,2019_May_20_1207,with_training,3.0.7,59.94893232600368,
31,"[-0.15, -0.3]",,,,,,,,,0,3,3,39,,,ralt,0.7603751292626839,I_V_DominikaD,001,2019_May_20_1207,with_training,3.0.7,59.94893232600368,
21,"[0.15, 0.3]",,,,,,,,,0,4,4,10,,,lalt,0.7112562326656189,I_V_DominikaD,001,2019_May_20_1207,with_training,3.0.7,59.94893232600368,
31,"[-0.15, -0.3]",,,,,,,,,0,5,5,15,,,ralt,0.8768809742177837,I_V_DominikaD,001,2019_May_20_1207,with_training,3.0.7,59.94893232600368,
11,"[-0.15, -0.3]",,,,,,,,,0,6,6,3,,,lalt,0.7102443930634763,I_V_DominikaD,001,2019_May_20_1207,with_training,3.0.7,59.94893232600368,
21,"[-0.15, -0.3]",,,,,,,,,0,7,7,9,,,lalt,0.6911987461789977,I_V_DominikaD,001,2019_May_20_1207,with_training,3.0.7,59.94893232600368,
22,"[0.15, -0.3]",,,,,,,,,0,8,8,35,,,lalt,0.7059579603374004,I_V_DominikaD,001,2019_May_20_1207,with_training,3.0.7,59.94893232600368,
12,"[-0.3, 0]",,,,,,,,,0,9,9,18,,,lalt,0.6101918088097591,I_V_DominikaD,001,2019_May_20_1207,with_training,3.0.7,59.94893232600368,
31,"[-0.15, 0.3]",,,,,,,,,0,10,10,38,,,ralt,1.0225043754908256,I_V_DominikaD,001,2019_May_20_1207,with_training,3.0.7,59.94893232600368,
22,"[0.3, 0]",,,,,,,,,0,11,11,31,,,lalt,0.9248884169210214,I_V_DominikaD,001,2019_May_20_1207,with_training,3.0.7,59.94893232600368,
31,"[0.15, -0.3]",,,,,,,,,0,12,12,41,,,ralt,1.3686966044770088,I_V_DominikaD,001,2019_May_20_1207,with_training,3.0.7,59.94893232600368,
21,"[0.15, -0.3]",,,,,,,,,0,13,13,11,,,lalt,0.756055491801817,I_V_DominikaD,001,2019_May_20_1207,with_training,3.0.7,59.94893232600368,
31,"[0.3, 0]",,,,,,,,,0,14,14,37,,,ralt,0.8277252505358774,I_V_DominikaD,001,2019_May_20_1207,with_training,3.0.7,59.94893232600368,
31,"[0.15, 0.3]",,,,,,,,,0,15,15,16,,,ralt,0.6892227610514965,I_V_DominikaD,001,2019_May_20_1207,with_training,3.0.7,59.94893232600368,
22,"[-0.15, 0.3]",,,,,,,,,0,16,16,32,,,lalt,0.6563898939057253,I_V_DominikaD,001,2019_May_20_1207,with_training,3.0.7,59.94893232600368,
32,"[-0.15, -0.3]",,,,,,,,,0,17,17,27,,,ralt,0.6905358584190253,I_V_DominikaD,001,2019_May_20_1207,with_training,3.0.7,59.94893232600368,
32,"[-0.15, 0.3]",,,,,,,,,0,18,18,26,,,ralt,0.6230541255499702,I_V_DominikaD,001,2019_May_20_1207,with_training,3.0.7,59.94893232600368,
22,"[-0.15, -0.3]",,,,,,,,,0,19,19,33,,,lalt,1.1095720872399397,I_V_DominikaD,001,2019_May_20_1207,with_training,3.0.7,59.94893232600368,
31,"[-0.3, 0]",,,,,,,,,0,20,20,12,,,ralt,0.7371366267034318,I_V_DominikaD,001,2019_May_20_1207,with_training,3.0.7,59.94893232600368,
12,"[-0.15, 0.3]",,,,,,,,,0,21,21,20,,,None,,I_V_DominikaD,001,2019_May_20_1207,with_training,3.0.7,59.94893232600368,
32,"[0.15, 0.3]",,,,,,,,,0,22,22,28,,,ralt,0.9116807706304826,I_V_DominikaD,001,2019_May_20_1207,with_training,3.0.7,59.94893232600368,
31,"[0.15, -0.3]",,,,,,,,,0,23,23,17,,,ralt,0.6395212718925904,I_V_DominikaD,001,2019_May_20_1207,with_training,3.0.7,59.94893232600368,
32,"[0.15, -0.3]",,,,,,,,,0,24,24,29,,,ralt,0.6573775846045464,I_V_DominikaD,001,2019_May_20_1207,with_training,3.0.7,59.94893232600368,
11,"[0.15, -0.3]",,,,,,,,,0,25,25,5,,,ralt,0.5883829221129417,I_V_DominikaD,001,2019_May_20_1207,with_training,3.0.7,59.94893232600368,
22,"[-0.3, 0]",,,,,,,,,0,26,26,30,,,lalt,0.76004972262308,I_V_DominikaD,001,2019_May_20_1207,with_training,3.0.7,59.94893232600368,
32,"[-0.3, 0]",,,,,,,,,0,27,27,42,,,ralt,0.7901151239057072,I_V_DominikaD,001,2019_May_20_1207,with_training,3.0.7,59.94893232600368,
21,"[0.3, 0]",,,,,,,,,0,28,28,7,,,lalt,0.7516579740622547,I_V_DominikaD,001,2019_May_20_1207,with_training,3.0.7,59.94893232600368,
11,"[0.15, 0.3]",,,,,,,,,0,29,29,4,,,lalt,1.0230791197100189,I_V_DominikaD,001,2019_May_20_1207,with_training,3.0.7,59.94893232600368,
32,"[0.15, 0.3]",,,,,,,,,0,30,30,46,,,ralt,0.7346517032128759,I_V_DominikaD,001,2019_May_20_1207,with_training,3.0.7,59.94893232600368,
31,"[0.15, 0.3]",,,,,,,,,0,31,31,40,,,ralt,1.699417829979211,I_V_DominikaD,001,2019_May_20_1207,with_training,3.0.7,59.94893232600368,
12,"[0.15, 0.3]",,,,,,,,,0,32,32,22,,,lalt,1.1447166094440036,I_V_DominikaD,001,2019_May_20_1207,with_training,3.0.7,59.94893232600368,
31,"[0.3, 0]",,,,,,,,,0,33,33,13,,,ralt,0.7892179916671012,I_V_DominikaD,001,2019_May_20_1207,with_training,3.0.7,59.94893232600368,
12,"[-0.15, -0.3]",,,,,,,,,0,34,34,21,,,ralt,1.3331457767344546,I_V_DominikaD,001,2019_May_20_1207,with_training,3.0.7,59.94893232600368,
32,"[-0.15, -0.3]",,,,,,,,,0,35,35,45,,,ralt,0.9634306917141657,I_V_DominikaD,001,2019_May_20_1207,with_training,3.0.7,59.94893232600368,
32,"[0.3, 0]",,,,,,,,,0,36,36,43,,,ralt,0.6206464785791468,I_V_DominikaD,001,2019_May_20_1207,with_training,3.0.7,59.94893232600368,
32,"[0.3, 0]",,,,,,,,,0,37,37,25,,,ralt,0.9052849300496746,I_V_DominikaD,001,2019_May_20_1207,with_training,3.0.7,59.94893232600368,
31,"[-0.3, 0]",,,,,,,,,0,38,38,36,,,ralt,0.8104261740518268,I_V_DominikaD,001,2019_May_20_1207,with_training,3.0.7,59.94893232600368,
11,"[-0.3, 0]",,,,,,,,,0,39,39,0,,,lalt,1.610400093224598,I_V_DominikaD,001,2019_May_20_1207,with_training,3.0.7,59.94893232600368,
32,"[-0.3, 0]",,,,,,,,,0,40,40,24,,,ralt,0.67700944643002,I_V_DominikaD,001,2019_May_20_1207,with_training,3.0.7,59.94893232600368,
21,"[-0.3, 0]",,,,,,,,,0,41,41,6,,,lalt,0.7055878782120999,I_V_DominikaD,001,2019_May_20_1207,with_training,3.0.7,59.94893232600368,
11,"[0.3, 0]",,,,,,,,,0,42,42,1,,,lalt,0.6710893395065796,I_V_DominikaD,001,2019_May_20_1207,with_training,3.0.7,59.94893232600368,
12,"[0.3, 0]",,,,,,,,,0,43,43,19,,,lalt,0.7080661607906222,I_V_DominikaD,001,2019_May_20_1207,with_training,3.0.7,59.94893232600368,
22,"[0.15, 0.3]",,,,,,,,,0,44,44,34,,,lalt,0.7225549070863053,I_V_DominikaD,001,2019_May_20_1207,with_training,3.0.7,59.94893232600368,
11,"[-0.15, 0.3]",,,,,,,,,0,45,45,2,,,lalt,0.6403827844769694,I_V_DominikaD,001,2019_May_20_1207,with_training,3.0.7,59.94893232600368,
12,"[0.15, -0.3]",,,,,,,,,0,46,46,23,,,lalt,0.7595957229787018,I_V_DominikaD,001,2019_May_20_1207,with_training,3.0.7,59.94893232600368,
31,"[-0.15, 0.3]",,,,,,,,,0,47,47,14,,,ralt,0.8081060668628197,I_V_DominikaD,001,2019_May_20_1207,with_training,3.0.7,59.94893232600368,
32,"[-0.15, 0.3]",,,,,,,,,1,0,48,44,,,ralt,0.6205873137514573,I_V_DominikaD,001,2019_May_20_1207,with_training,3.0.7,59.94893232600368,
12,"[-0.15, -0.3]",,,,,,,,,1,1,49,21,,,lalt,0.672757425927557,I_V_DominikaD,001,2019_May_20_1207,with_training,3.0.7,59.94893232600368,
11,"[-0.15, -0.3]",,,,,,,,,1,2,50,3,,,lalt,0.6919407216482796,I_V_DominikaD,001,2019_May_20_1207,with_training,3.0.7,59.94893232600368,
31,"[0.15, 0.3]",,,,,,,,,1,3,51,16,,,ralt,0.8194319088070188,I_V_DominikaD,001,2019_May_20_1207,with_training,3.0.7,59.94893232600368,
22,"[-0.15, 0.3]",,,,,,,,,1,4,52,32,,,lalt,0.8418493481876794,I_V_DominikaD,001,2019_May_20_1207,with_training,3.0.7,59.94893232600368,
21,"[0.3, 0]",,,,,,,,,1,5,53,7,,,lalt,0.7244632752554026,I_V_DominikaD,001,2019_May_20_1207,with_training,3.0.7,59.94893232600368,
31,"[-0.15, -0.3]",,,,,,,,,1,6,54,39,,,ralt,0.9991282240953296,I_V_DominikaD,001,2019_May_20_1207,with_training,3.0.7,59.94893232600368,
21,"[-0.15, 0.3]",,,,,,,,,1,7,55,8,,,lalt,0.7908021605981048,I_V_DominikaD,001,2019_May_20_1207,with_training,3.0.7,59.94893232600368,
21,"[-0.3, 0]",,,,,,,,,1,8,56,6,,,lalt,0.6396885031426791,I_V_DominikaD,001,2019_May_20_1207,with_training,3.0.7,59.94893232600368,
32,"[0.3, 0]",,,,,,,,,1,9,57,25,,,ralt,1.020969108096324,I_V_DominikaD,001,2019_May_20_1207,with_training,3.0.7,59.94893232600368,
32,"[0.15, 0.3]",,,,,,,,,1,10,58,46,,,ralt,1.247383917652769,I_V_DominikaD,001,2019_May_20_1207,with_training,3.0.7,59.94893232600368,
31,"[0.3, 0]",,,,,,,,,1,11,59,13,,,ralt,0.7576511314837262,I_V_DominikaD,001,2019_May_20_1207,with_training,3.0.7,59.94893232600368,
22,"[-0.15, -0.3]",,,,,,,,,1,12,60,33,,,ralt,0.7596301352023147,I_V_DominikaD,001,2019_May_20_1207,with_training,3.0.7,59.94893232600368,
21,"[-0.15, -0.3]",,,,,,,,,1,13,61,9,,,lalt,0.7951652661140542,I_V_DominikaD,001,2019_May_20_1207,with_training,3.0.7,59.94893232600368,
31,"[0.15, -0.3]",,,,,,,,,1,14,62,17,,,ralt,0.9269350375980139,I_V_DominikaD,001,2019_May_20_1207,with_training,3.0.7,59.94893232600368,
12,"[-0.3, 0]",,,,,,,,,1,15,63,18,,,lalt,0.6924738089728635,I_V_DominikaD,001,2019_May_20_1207,with_training,3.0.7,59.94893232600368,
31,"[-0.3, 0]",,,,,,,,,1,16,64,12,,,ralt,0.6032387319719419,I_V_DominikaD,001,2019_May_20_1207,with_training,3.0.7,59.94893232600368,
31,"[-0.15, 0.3]",,,,,,,,,1,17,65,38,,,ralt,0.7598100446339231,I_V_DominikaD,001,2019_May_20_1207,with_training,3.0.7,59.94893232600368,
21,"[0.15, -0.3]",,,,,,,,,1,18,66,11,,,lalt,0.8244874845258892,I_V_DominikaD,001,2019_May_20_1207,with_training,3.0.7,59.94893232600368,
32,"[-0.3, 0]",,,,,,,,,1,19,67,24,,,ralt,0.8191016723576467,I_V_DominikaD,001,2019_May_20_1207,with_training,3.0.7,59.94893232600368,
11,"[0.15, -0.3]",,,,,,,,,1,20,68,5,,,lalt,0.7732332199811935,I_V_DominikaD,001,2019_May_20_1207,with_training,3.0.7,59.94893232600368,
32,"[-0.3, 0]",,,,,,,,,1,21,69,42,,,lalt,0.8443644578801468,I_V_DominikaD,001,2019_May_20_1207,with_training,3.0.7,59.94893232600368,
22,"[0.15, 0.3]",,,,,,,,,1,22,70,34,,,ralt,0.7069981749518774,I_V_DominikaD,001,2019_May_20_1207,with_training,3.0.7,59.94893232600368,
31,"[-0.15, 0.3]",,,,,,,,,1,23,71,14,,,ralt,1.0109569672204088,I_V_DominikaD,001,2019_May_20_1207,with_training,3.0.7,59.94893232600368,
12,"[0.3, 0]",,,,,,,,,1,24,72,19,,,lalt,0.8561261877475772,I_V_DominikaD,001,2019_May_20_1207,with_training,3.0.7,59.94893232600368,
32,"[-0.15, -0.3]",,,,,,,,,1,25,73,27,,,ralt,0.8371946444967762,I_V_DominikaD,001,2019_May_20_1207,with_training,3.0.7,59.94893232600368,
22,"[0.15, -0.3]",,,,,,,,,1,26,74,35,,,lalt,1.1080827027908526,I_V_DominikaD,001,2019_May_20_1207,with_training,3.0.7,59.94893232600368,
12,"[0.15, -0.3]",,,,,,,,,1,27,75,23,,,lalt,0.9070604791340884,I_V_DominikaD,001,2019_May_20_1207,with_training,3.0.7,59.94893232600368,
31,"[-0.3, 0]",,,,,,,,,1,28,76,36,,,ralt,0.7733050629904028,I_V_DominikaD,001,2019_May_20_1207,with_training,3.0.7,59.94893232600368,
11,"[0.3, 0]",,,,,,,,,1,29,77,1,,,lalt,1.159230108372867,I_V_DominikaD,001,2019_May_20_1207,with_training,3.0.7,59.94893232600368,
22,"[-0.3, 0]",,,,,,,,,1,30,78,30,,,lalt,0.7043170414690394,I_V_DominikaD,001,2019_May_20_1207,with_training,3.0.7,59.94893232600368,
32,"[0.3, 0]",,,,,,,,,1,31,79,43,,,ralt,0.9053507358476054,I_V_DominikaD,001,2019_May_20_1207,with_training,3.0.7,59.94893232600368,
12,"[-0.15, 0.3]",,,,,,,,,1,32,80,20,,,lalt,1.3084812806628179,I_V_DominikaD,001,2019_May_20_1207,with_training,3.0.7,59.94893232600368,
32,"[0.15, 0.3]",,,,,,,,,1,33,81,28,,,ralt,1.0839108446380123,I_V_DominikaD,001,2019_May_20_1207,with_training,3.0.7,59.94893232600368,
31,"[0.15, -0.3]",,,,,,,,,1,34,82,41,,,ralt,0.7108988287218381,I_V_DominikaD,001,2019_May_20_1207,with_training,3.0.7,59.94893232600368,
11,"[-0.15, 0.3]",,,,,,,,,1,35,83,2,,,lalt,0.9229891046124976,I_V_DominikaD,001,2019_May_20_1207,with_training,3.0.7,59.94893232600368,
32,"[0.15, -0.3]",,,,,,,,,1,36,84,29,,,ralt,1.531302731425967,I_V_DominikaD,001,2019_May_20_1207,with_training,3.0.7,59.94893232600368,
32,"[0.15, -0.3]",,,,,,,,,1,37,85,47,,,ralt,0.6708019674115349,I_V_DominikaD,001,2019_May_20_1207,with_training,3.0.7,59.94893232600368,
31,"[-0.15, -0.3]",,,,,,,,,1,38,86,15,,,ralt,0.5711774227092974,I_V_DominikaD,001,2019_May_20_1207,with_training,3.0.7,59.94893232600368,
21,"[0.15, 0.3]",,,,,,,,,1,39,87,10,,,ralt,0.5378585585858673,I_V_DominikaD,001,2019_May_20_1207,with_training,3.0.7,59.94893232600368,
31,"[0.15, 0.3]",,,,,,,,,1,40,88,40,,,ralt,0.7754416383977514,I_V_DominikaD,001,2019_May_20_1207,with_training,3.0.7,59.94893232600368,
11,"[-0.3, 0]",,,,,,,,,1,41,89,0,,,lalt,0.7228791062952951,I_V_DominikaD,001,2019_May_20_1207,with_training,3.0.7,59.94893232600368,
12,"[0.15, 0.3]",,,,,,,,,1,42,90,22,,,lalt,0.7431309915846214,I_V_DominikaD,001,2019_May_20_1207,with_training,3.0.7,59.94893232600368,
22,"[0.3, 0]",,,,,,,,,1,43,91,31,,,lalt,0.8105203548329882,I_V_DominikaD,001,2019_May_20_1207,with_training,3.0.7,59.94893232600368,
32,"[-0.15, 0.3]",,,,,,,,,1,44,92,26,,,ralt,0.7447103307058569,I_V_DominikaD,001,2019_May_20_1207,with_training,3.0.7,59.94893232600368,
31,"[0.3, 0]",,,,,,,,,1,45,93,37,,,ralt,0.9086977756815031,I_V_DominikaD,001,2019_May_20_1207,with_training,3.0.7,59.94893232600368,
11,"[0.15, 0.3]",,,,,,,,,1,46,94,4,,,lalt,0.7571814350376371,I_V_DominikaD,001,2019_May_20_1207,with_training,3.0.7,59.94893232600368,
32,"[-0.15, -0.3]",,,,,,,,,1,47,95,45,,,ralt,1.3319184080464765,I_V_DominikaD,001,2019_May_20_1207,with_training,3.0.7,59.94893232600368,
