img,pos,trials_2.thisRepN,trials_2.thisTrialN,trials_2.thisN,trials_2.thisIndex,trials_3.thisRepN,trials_3.thisTrialN,trials_3.thisN,trials_3.thisIndex,trials.thisRepN,trials.thisTrialN,trials.thisN,trials.thisIndex,key_resp_6_2.keys,key_resp_6_2.rt,key_resp_6.keys,key_resp_6.rt,participant,session,date,expName,psychopyVersion,frameRate,
31,"[-0.3, 0]",0,0,0,6,,,,,,,,,,,,,I_V_JakubK,001,2019_May_22_1059,with_training,3.0.7,None,
32,"[0.3, 0]",0,1,1,7,,,,,,,,,,,,,I_V_JakubK,001,2019_May_22_1059,with_training,3.0.7,None,
12,"[-0.15, 0.3]",0,2,2,2,,,,,,,,,,,,,I_V_JakubK,001,2019_May_22_1059,with_training,3.0.7,None,
13,"[-0.15, -0.3]",0,3,3,3,,,,,,,,,,,,,I_V_JakubK,001,2019_May_22_1059,with_training,3.0.7,None,
13,"[0.15, 0.3]",0,4,4,4,,,,,,,,,,,,,I_V_JakubK,001,2019_May_22_1059,with_training,3.0.7,None,
14,"[0.15, -0.3]",0,5,5,5,,,,,,,,,,,,,I_V_JakubK,001,2019_May_22_1059,with_training,3.0.7,None,
33,"[-0.15, 0.3]",0,6,6,8,,,,,,,,,,,,,I_V_JakubK,001,2019_May_22_1059,with_training,3.0.7,None,
11,"[-0.3, 0]",0,7,7,0,,,,,,,,,,,,,I_V_JakubK,001,2019_May_22_1059,with_training,3.0.7,None,
12,"[0.3, 0]",0,8,8,1,,,,,,,,,,,,,I_V_JakubK,001,2019_May_22_1059,with_training,3.0.7,None,
34,"[-0.15, -0.3]",0,9,9,9,,,,,,,,,,,,,I_V_JakubK,001,2019_May_22_1059,with_training,3.0.7,None,
33,"[0.15, -0.3]",,,,,0,0,0,41,,,,,None,,,,I_V_JakubK,001,2019_May_22_1059,with_training,3.0.7,None,
34,"[0.15, -0.3]",,,,,0,1,1,47,,,,,ralt,1.5615125386684667,,,I_V_JakubK,001,2019_May_22_1059,with_training,3.0.7,None,
33,"[-0.15, 0.3]",,,,,0,2,2,38,,,,,lalt,1.1304152272932697,,,I_V_JakubK,001,2019_May_22_1059,with_training,3.0.7,None,
24,"[-0.15, -0.3]",,,,,0,3,3,21,,,,,lalt,1.1236360431066714,,,I_V_JakubK,001,2019_May_22_1059,with_training,3.0.7,None,
23,"[0.15, -0.3]",,,,,0,4,4,17,,,,,ralt,1.31173561362084,,,I_V_JakubK,001,2019_May_22_1059,with_training,3.0.7,None,
33,"[0.15, 0.3]",,,,,0,5,5,28,,,,,None,,,,I_V_JakubK,001,2019_May_22_1059,with_training,3.0.7,None,
23,"[0.3, 0]",,,,,0,6,6,13,,,,,lalt,0.8184785745397676,,,I_V_JakubK,001,2019_May_22_1059,with_training,3.0.7,None,
34,"[-0.15, -0.3]",,,,,0,7,7,45,,,,,lalt,1.5402162770624273,,,I_V_JakubK,001,2019_May_22_1059,with_training,3.0.7,None,
14,"[0.15, -0.3]",,,,,0,8,8,11,,,,,None,,,,I_V_JakubK,001,2019_May_22_1059,with_training,3.0.7,None,
33,"[-0.3, 0]",,,,,0,9,9,24,,,,,lalt,1.440933739184402,,,I_V_JakubK,001,2019_May_22_1059,with_training,3.0.7,None,
13,"[-0.3, 0]",,,,,0,10,10,0,,,,,None,,,,I_V_JakubK,001,2019_May_22_1059,with_training,3.0.7,None,
33,"[0.15, 0.3]",,,,,0,11,11,40,,,,,lalt,1.513164742209483,,,I_V_JakubK,001,2019_May_22_1059,with_training,3.0.7,None,
34,"[-0.15, -0.3]",,,,,0,12,12,33,,,,,ralt,1.515288633032469,,,I_V_JakubK,001,2019_May_22_1059,with_training,3.0.7,None,
13,"[0.15, 0.3]",,,,,0,13,13,4,,,,,lalt,1.6381283680093475,,,I_V_JakubK,001,2019_May_22_1059,with_training,3.0.7,None,
14,"[-0.3, 0]",,,,,0,14,14,6,,,,,lalt,1.390488615637878,,,I_V_JakubK,001,2019_May_22_1059,with_training,3.0.7,None,
33,"[-0.3, 0]",,,,,0,15,15,36,,,,,ralt,1.366557111410657,,,I_V_JakubK,001,2019_May_22_1059,with_training,3.0.7,None,
23,"[-0.3, 0]",,,,,0,16,16,12,,,,,lalt,1.2568688367900904,,,I_V_JakubK,001,2019_May_22_1059,with_training,3.0.7,None,
33,"[0.3, 0]",,,,,0,17,17,25,,,,,lalt,1.6093616615398787,,,I_V_JakubK,001,2019_May_22_1059,with_training,3.0.7,None,
24,"[0.15, -0.3]",,,,,0,18,18,23,,,,,None,,,,I_V_JakubK,001,2019_May_22_1059,with_training,3.0.7,None,
24,"[-0.15, 0.3]",,,,,0,19,19,20,,,,,None,,,,I_V_JakubK,001,2019_May_22_1059,with_training,3.0.7,None,
34,"[0.3, 0]",,,,,0,20,20,31,,,,,ralt,1.3444216774369124,,,I_V_JakubK,001,2019_May_22_1059,with_training,3.0.7,None,
13,"[-0.15, 0.3]",,,,,0,21,21,2,,,,,ralt,0.9573990246281028,,,I_V_JakubK,001,2019_May_22_1059,with_training,3.0.7,None,
23,"[-0.15, -0.3]",,,,,0,22,22,15,,,,,lalt,1.3805900045263115,,,I_V_JakubK,001,2019_May_22_1059,with_training,3.0.7,None,
33,"[0.3, 0]",,,,,0,23,23,37,,,,,ralt,1.0910049178928602,,,I_V_JakubK,001,2019_May_22_1059,with_training,3.0.7,None,
33,"[-0.15, -0.3]",,,,,0,24,24,27,,,,,ralt,1.2004541190108284,,,I_V_JakubK,001,2019_May_22_1059,with_training,3.0.7,None,
14,"[-0.15, -0.3]",,,,,0,25,25,9,,,,,lalt,0.9434597082436085,,,I_V_JakubK,001,2019_May_22_1059,with_training,3.0.7,None,
14,"[0.3, 0]",,,,,0,26,26,7,,,,,lalt,1.1093864140857477,,,I_V_JakubK,001,2019_May_22_1059,with_training,3.0.7,None,
14,"[0.15, 0.3]",,,,,0,27,27,10,,,,,ralt,1.008007756609004,,,I_V_JakubK,001,2019_May_22_1059,with_training,3.0.7,None,
14,"[-0.15, 0.3]",,,,,0,28,28,8,,,,,lalt,0.8702198872924782,,,I_V_JakubK,001,2019_May_22_1059,with_training,3.0.7,None,
23,"[0.15, 0.3]",,,,,0,29,29,16,,,,,lalt,1.025376208795933,,,I_V_JakubK,001,2019_May_22_1059,with_training,3.0.7,None,
33,"[-0.15, 0.3]",,,,,0,30,30,26,,,,,lalt,1.655117683345452,,,I_V_JakubK,001,2019_May_22_1059,with_training,3.0.7,None,
33,"[0.15, -0.3]",,,,,0,31,31,29,,,,,ralt,1.1103698757651728,,,I_V_JakubK,001,2019_May_22_1059,with_training,3.0.7,None,
34,"[-0.15, 0.3]",,,,,0,32,32,44,,,,,None,,,,I_V_JakubK,001,2019_May_22_1059,with_training,3.0.7,None,
13,"[0.15, -0.3]",,,,,0,33,33,5,,,,,lalt,1.1996578108810354,,,I_V_JakubK,001,2019_May_22_1059,with_training,3.0.7,None,
34,"[-0.15, 0.3]",,,,,0,34,34,32,,,,,ralt,1.2785231050220318,,,I_V_JakubK,001,2019_May_22_1059,with_training,3.0.7,None,
23,"[-0.15, 0.3]",,,,,0,35,35,14,,,,,lalt,0.991820182884112,,,I_V_JakubK,001,2019_May_22_1059,with_training,3.0.7,None,
13,"[-0.15, -0.3]",,,,,0,36,36,3,,,,,lalt,0.8801396285998635,,,I_V_JakubK,001,2019_May_22_1059,with_training,3.0.7,None,
34,"[0.15, -0.3]",,,,,0,37,37,35,,,,,ralt,1.2461576171044726,,,I_V_JakubK,001,2019_May_22_1059,with_training,3.0.7,None,
33,"[-0.15, -0.3]",,,,,0,38,38,39,,,,,ralt,1.2361056608497165,,,I_V_JakubK,001,2019_May_22_1059,with_training,3.0.7,None,
34,"[0.15, 0.3]",,,,,0,39,39,34,,,,,ralt,1.101540454721544,,,I_V_JakubK,001,2019_May_22_1059,with_training,3.0.7,None,
34,"[-0.3, 0]",,,,,0,40,40,42,,,,,ralt,1.1146502583287656,,,I_V_JakubK,001,2019_May_22_1059,with_training,3.0.7,None,
24,"[-0.3, 0]",,,,,0,41,41,18,,,,,lalt,1.124280213523889,,,I_V_JakubK,001,2019_May_22_1059,with_training,3.0.7,None,
24,"[0.3, 0]",,,,,0,42,42,19,,,,,lalt,0.8247560664894991,,,I_V_JakubK,001,2019_May_22_1059,with_training,3.0.7,None,
34,"[0.3, 0]",,,,,0,43,43,43,,,,,ralt,0.996208027790999,,,I_V_JakubK,001,2019_May_22_1059,with_training,3.0.7,None,
34,"[-0.3, 0]",,,,,0,44,44,30,,,,,ralt,0.7808075856301002,,,I_V_JakubK,001,2019_May_22_1059,with_training,3.0.7,None,
13,"[0.3, 0]",,,,,0,45,45,1,,,,,lalt,0.9158992365410086,,,I_V_JakubK,001,2019_May_22_1059,with_training,3.0.7,None,
24,"[0.15, 0.3]",,,,,0,46,46,22,,,,,ralt,1.0364756211347412,,,I_V_JakubK,001,2019_May_22_1059,with_training,3.0.7,None,
34,"[0.15, 0.3]",,,,,0,47,47,46,,,,,ralt,1.2952250491071027,,,I_V_JakubK,001,2019_May_22_1059,with_training,3.0.7,None,
23,"[-0.15, 0.3]",,,,,1,0,48,14,,,,,ralt,1.139635255880421,,,I_V_JakubK,001,2019_May_22_1059,with_training,3.0.7,None,
34,"[-0.3, 0]",,,,,1,1,49,30,,,,,None,,,,I_V_JakubK,001,2019_May_22_1059,with_training,3.0.7,None,
23,"[-0.15, -0.3]",,,,,1,2,50,15,,,,,lalt,0.9870773499715142,,,I_V_JakubK,001,2019_May_22_1059,with_training,3.0.7,None,
13,"[-0.15, 0.3]",,,,,1,3,51,2,,,,,lalt,0.900327458337415,,,I_V_JakubK,001,2019_May_22_1059,with_training,3.0.7,None,
33,"[-0.3, 0]",,,,,1,4,52,24,,,,,ralt,1.208362261619186,,,I_V_JakubK,001,2019_May_22_1059,with_training,3.0.7,None,
34,"[0.15, 0.3]",,,,,1,5,53,34,,,,,ralt,1.3331363190081902,,,I_V_JakubK,001,2019_May_22_1059,with_training,3.0.7,None,
24,"[0.15, -0.3]",,,,,1,6,54,23,,,,,lalt,0.8338149015326053,,,I_V_JakubK,001,2019_May_22_1059,with_training,3.0.7,None,
13,"[0.15, -0.3]",,,,,1,7,55,5,,,,,lalt,0.696404357906431,,,I_V_JakubK,001,2019_May_22_1059,with_training,3.0.7,None,
33,"[0.3, 0]",,,,,1,8,56,25,,,,,ralt,1.4911941241298337,,,I_V_JakubK,001,2019_May_22_1059,with_training,3.0.7,None,
23,"[0.15, 0.3]",,,,,1,9,57,16,,,,,lalt,0.8362152965855785,,,I_V_JakubK,001,2019_May_22_1059,with_training,3.0.7,None,
14,"[-0.3, 0]",,,,,1,10,58,6,,,,,lalt,0.9653337309719063,,,I_V_JakubK,001,2019_May_22_1059,with_training,3.0.7,None,
14,"[0.15, 0.3]",,,,,1,11,59,10,,,,,lalt,0.7461763324390631,,,I_V_JakubK,001,2019_May_22_1059,with_training,3.0.7,None,
23,"[0.3, 0]",,,,,1,12,60,13,,,,,lalt,0.9044840780552477,,,I_V_JakubK,001,2019_May_22_1059,with_training,3.0.7,None,
14,"[0.15, -0.3]",,,,,1,13,61,11,,,,,lalt,0.9199302822817117,,,I_V_JakubK,001,2019_May_22_1059,with_training,3.0.7,None,
34,"[0.3, 0]",,,,,1,14,62,31,,,,,ralt,1.0390565288253129,,,I_V_JakubK,001,2019_May_22_1059,with_training,3.0.7,None,
33,"[-0.15, -0.3]",,,,,1,15,63,39,,,,,ralt,1.344111968530342,,,I_V_JakubK,001,2019_May_22_1059,with_training,3.0.7,None,
34,"[-0.15, -0.3]",,,,,1,16,64,33,,,,,ralt,1.1211589754675515,,,I_V_JakubK,001,2019_May_22_1059,with_training,3.0.7,None,
34,"[-0.15, -0.3]",,,,,1,17,65,45,,,,,ralt,1.3686278747627512,,,I_V_JakubK,001,2019_May_22_1059,with_training,3.0.7,None,
34,"[-0.3, 0]",,,,,1,18,66,42,,,,,lalt,1.0091693160065915,,,I_V_JakubK,001,2019_May_22_1059,with_training,3.0.7,None,
33,"[-0.15, -0.3]",,,,,1,19,67,27,,,,,ralt,1.018562008801382,,,I_V_JakubK,001,2019_May_22_1059,with_training,3.0.7,None,
33,"[-0.3, 0]",,,,,1,20,68,36,,,,,ralt,0.8324806778982747,,,I_V_JakubK,001,2019_May_22_1059,with_training,3.0.7,None,
33,"[-0.15, 0.3]",,,,,1,21,69,26,,,,,ralt,0.9140307197521906,,,I_V_JakubK,001,2019_May_22_1059,with_training,3.0.7,None,
13,"[-0.15, -0.3]",,,,,1,22,70,3,,,,,None,,,,I_V_JakubK,001,2019_May_22_1059,with_training,3.0.7,None,
33,"[0.15, -0.3]",,,,,1,23,71,41,,,,,ralt,1.6211094703467097,,,I_V_JakubK,001,2019_May_22_1059,with_training,3.0.7,None,
34,"[0.15, -0.3]",,,,,1,24,72,47,,,,,ralt,1.2270673523307778,,,I_V_JakubK,001,2019_May_22_1059,with_training,3.0.7,None,
33,"[0.3, 0]",,,,,1,25,73,37,,,,,ralt,1.0402404258784372,,,I_V_JakubK,001,2019_May_22_1059,with_training,3.0.7,None,
34,"[0.15, -0.3]",,,,,1,26,74,35,,,,,ralt,1.4958723588788416,,,I_V_JakubK,001,2019_May_22_1059,with_training,3.0.7,None,
24,"[-0.3, 0]",,,,,1,27,75,18,,,,,lalt,0.7313241897791158,,,I_V_JakubK,001,2019_May_22_1059,with_training,3.0.7,None,
24,"[0.3, 0]",,,,,1,28,76,19,,,,,lalt,0.7855413627403323,,,I_V_JakubK,001,2019_May_22_1059,with_training,3.0.7,None,
14,"[0.3, 0]",,,,,1,29,77,7,,,,,lalt,1.0540463198849466,,,I_V_JakubK,001,2019_May_22_1059,with_training,3.0.7,None,
33,"[-0.15, 0.3]",,,,,1,30,78,38,,,,,ralt,1.0426058051234577,,,I_V_JakubK,001,2019_May_22_1059,with_training,3.0.7,None,
23,"[0.15, -0.3]",,,,,1,31,79,17,,,,,lalt,0.8924392384942621,,,I_V_JakubK,001,2019_May_22_1059,with_training,3.0.7,None,
33,"[0.15, -0.3]",,,,,1,32,80,29,,,,,ralt,0.9336631260521244,,,I_V_JakubK,001,2019_May_22_1059,with_training,3.0.7,None,
24,"[-0.15, -0.3]",,,,,1,33,81,21,,,,,lalt,0.6299298355297651,,,I_V_JakubK,001,2019_May_22_1059,with_training,3.0.7,None,
24,"[-0.15, 0.3]",,,,,1,34,82,20,,,,,lalt,1.4744493158068508,,,I_V_JakubK,001,2019_May_22_1059,with_training,3.0.7,None,
13,"[0.3, 0]",,,,,1,35,83,1,,,,,lalt,1.0065419217862654,,,I_V_JakubK,001,2019_May_22_1059,with_training,3.0.7,None,
33,"[0.15, 0.3]",,,,,1,36,84,40,,,,,ralt,1.236708778218599,,,I_V_JakubK,001,2019_May_22_1059,with_training,3.0.7,None,
33,"[0.15, 0.3]",,,,,1,37,85,28,,,,,ralt,1.3498817310319282,,,I_V_JakubK,001,2019_May_22_1059,with_training,3.0.7,None,
14,"[-0.15, -0.3]",,,,,1,38,86,9,,,,,lalt,0.8606641898222733,,,I_V_JakubK,001,2019_May_22_1059,with_training,3.0.7,None,
13,"[-0.3, 0]",,,,,1,39,87,0,,,,,lalt,1.2269061588158365,,,I_V_JakubK,001,2019_May_22_1059,with_training,3.0.7,None,
14,"[-0.15, 0.3]",,,,,1,40,88,8,,,,,lalt,0.6476393901393749,,,I_V_JakubK,001,2019_May_22_1059,with_training,3.0.7,None,
34,"[-0.15, 0.3]",,,,,1,41,89,44,,,,,ralt,1.2675860936578829,,,I_V_JakubK,001,2019_May_22_1059,with_training,3.0.7,None,
13,"[0.15, 0.3]",,,,,1,42,90,4,,,,,lalt,0.8386012023838703,,,I_V_JakubK,001,2019_May_22_1059,with_training,3.0.7,None,
34,"[0.15, 0.3]",,,,,1,43,91,46,,,,,ralt,1.534723622520687,,,I_V_JakubK,001,2019_May_22_1059,with_training,3.0.7,None,
24,"[0.15, 0.3]",,,,,1,44,92,22,,,,,lalt,0.9728204763086978,,,I_V_JakubK,001,2019_May_22_1059,with_training,3.0.7,None,
34,"[-0.15, 0.3]",,,,,1,45,93,32,,,,,ralt,1.0273588288982864,,,I_V_JakubK,001,2019_May_22_1059,with_training,3.0.7,None,
34,"[0.3, 0]",,,,,1,46,94,43,,,,,ralt,1.0766852572269272,,,I_V_JakubK,001,2019_May_22_1059,with_training,3.0.7,None,
23,"[-0.3, 0]",,,,,1,47,95,12,,,,,lalt,0.633642116561532,,,I_V_JakubK,001,2019_May_22_1059,with_training,3.0.7,None,
32,"[-0.15, 0.3]",,,,,,,,,0,0,0,26,,,ralt,1.2592281788238324,I_V_JakubK,001,2019_May_22_1059,with_training,3.0.7,None,
11,"[-0.15, -0.3]",,,,,,,,,0,1,1,3,,,lalt,1.0923632904014084,I_V_JakubK,001,2019_May_22_1059,with_training,3.0.7,None,
11,"[0.3, 0]",,,,,,,,,0,2,2,1,,,lalt,0.8546384495566599,I_V_JakubK,001,2019_May_22_1059,with_training,3.0.7,None,
32,"[0.15, 0.3]",,,,,,,,,0,3,3,28,,,ralt,1.0649211479758378,I_V_JakubK,001,2019_May_22_1059,with_training,3.0.7,None,
12,"[-0.15, -0.3]",,,,,,,,,0,4,4,21,,,lalt,0.913119704608107,I_V_JakubK,001,2019_May_22_1059,with_training,3.0.7,None,
22,"[0.3, 0]",,,,,,,,,0,5,5,31,,,lalt,0.8087628909561317,I_V_JakubK,001,2019_May_22_1059,with_training,3.0.7,None,
21,"[0.15, 0.3]",,,,,,,,,0,6,6,10,,,lalt,0.8109109306242317,I_V_JakubK,001,2019_May_22_1059,with_training,3.0.7,None,
31,"[0.15, -0.3]",,,,,,,,,0,7,7,17,,,ralt,1.051945974206319,I_V_JakubK,001,2019_May_22_1059,with_training,3.0.7,None,
32,"[-0.15, -0.3]",,,,,,,,,0,8,8,27,,,ralt,0.9856453235261142,I_V_JakubK,001,2019_May_22_1059,with_training,3.0.7,None,
31,"[-0.3, 0]",,,,,,,,,0,9,9,36,,,ralt,1.5803329400951043,I_V_JakubK,001,2019_May_22_1059,with_training,3.0.7,None,
31,"[-0.3, 0]",,,,,,,,,0,10,10,12,,,ralt,1.2504567150317598,I_V_JakubK,001,2019_May_22_1059,with_training,3.0.7,None,
32,"[0.15, -0.3]",,,,,,,,,0,11,11,29,,,ralt,1.0818180940113962,I_V_JakubK,001,2019_May_22_1059,with_training,3.0.7,None,
22,"[-0.15, -0.3]",,,,,,,,,0,12,12,33,,,lalt,0.8739744288031943,I_V_JakubK,001,2019_May_22_1059,with_training,3.0.7,None,
32,"[0.3, 0]",,,,,,,,,0,13,13,43,,,ralt,1.0563138963188976,I_V_JakubK,001,2019_May_22_1059,with_training,3.0.7,None,
32,"[-0.15, -0.3]",,,,,,,,,0,14,14,45,,,ralt,1.1320537263527513,I_V_JakubK,001,2019_May_22_1059,with_training,3.0.7,None,
31,"[0.15, -0.3]",,,,,,,,,0,15,15,41,,,ralt,1.1862678807228804,I_V_JakubK,001,2019_May_22_1059,with_training,3.0.7,None,
32,"[0.3, 0]",,,,,,,,,0,16,16,25,,,ralt,1.3826764646510128,I_V_JakubK,001,2019_May_22_1059,with_training,3.0.7,None,
22,"[-0.3, 0]",,,,,,,,,0,17,17,30,,,lalt,0.7586745665757917,I_V_JakubK,001,2019_May_22_1059,with_training,3.0.7,None,
11,"[-0.3, 0]",,,,,,,,,0,18,18,0,,,lalt,0.6203524040756747,I_V_JakubK,001,2019_May_22_1059,with_training,3.0.7,None,
32,"[0.15, 0.3]",,,,,,,,,0,19,19,46,,,ralt,1.5547526735754218,I_V_JakubK,001,2019_May_22_1059,with_training,3.0.7,None,
32,"[-0.15, 0.3]",,,,,,,,,0,20,20,44,,,ralt,1.2607350666366983,I_V_JakubK,001,2019_May_22_1059,with_training,3.0.7,None,
32,"[-0.3, 0]",,,,,,,,,0,21,21,42,,,ralt,1.2074717730283737,I_V_JakubK,001,2019_May_22_1059,with_training,3.0.7,None,
31,"[-0.15, 0.3]",,,,,,,,,0,22,22,14,,,ralt,1.2587898772617336,I_V_JakubK,001,2019_May_22_1059,with_training,3.0.7,None,
21,"[-0.15, -0.3]",,,,,,,,,0,23,23,9,,,lalt,0.5653340932331048,I_V_JakubK,001,2019_May_22_1059,with_training,3.0.7,None,
31,"[0.3, 0]",,,,,,,,,0,24,24,13,,,ralt,0.6822718507610261,I_V_JakubK,001,2019_May_22_1059,with_training,3.0.7,None,
31,"[0.15, 0.3]",,,,,,,,,0,25,25,40,,,ralt,0.8400779041694477,I_V_JakubK,001,2019_May_22_1059,with_training,3.0.7,None,
22,"[0.15, 0.3]",,,,,,,,,0,26,26,34,,,ralt,0.7718640613311436,I_V_JakubK,001,2019_May_22_1059,with_training,3.0.7,None,
32,"[0.15, -0.3]",,,,,,,,,0,27,27,47,,,ralt,1.2079982178111095,I_V_JakubK,001,2019_May_22_1059,with_training,3.0.7,None,
12,"[-0.3, 0]",,,,,,,,,0,28,28,18,,,lalt,0.6169196459231898,I_V_JakubK,001,2019_May_22_1059,with_training,3.0.7,None,
21,"[-0.15, 0.3]",,,,,,,,,0,29,29,8,,,lalt,1.2320770299993455,I_V_JakubK,001,2019_May_22_1059,with_training,3.0.7,None,
12,"[0.15, 0.3]",,,,,,,,,0,30,30,22,,,lalt,0.9374955475504976,I_V_JakubK,001,2019_May_22_1059,with_training,3.0.7,None,
12,"[-0.15, 0.3]",,,,,,,,,0,31,31,20,,,lalt,0.7084359155851416,I_V_JakubK,001,2019_May_22_1059,with_training,3.0.7,None,
11,"[0.15, 0.3]",,,,,,,,,0,32,32,4,,,lalt,1.3955441761063412,I_V_JakubK,001,2019_May_22_1059,with_training,3.0.7,None,
11,"[-0.15, 0.3]",,,,,,,,,0,33,33,2,,,lalt,0.6712442812277004,I_V_JakubK,001,2019_May_22_1059,with_training,3.0.7,None,
31,"[-0.15, 0.3]",,,,,,,,,0,34,34,38,,,ralt,0.9821902276889887,I_V_JakubK,001,2019_May_22_1059,with_training,3.0.7,None,
31,"[-0.15, -0.3]",,,,,,,,,0,35,35,15,,,ralt,1.1341902952990495,I_V_JakubK,001,2019_May_22_1059,with_training,3.0.7,None,
12,"[0.15, -0.3]",,,,,,,,,0,36,36,23,,,lalt,0.9226983435219154,I_V_JakubK,001,2019_May_22_1059,with_training,3.0.7,None,
12,"[0.3, 0]",,,,,,,,,0,37,37,19,,,lalt,1.146512242848985,I_V_JakubK,001,2019_May_22_1059,with_training,3.0.7,None,
31,"[0.15, 0.3]",,,,,,,,,0,38,38,16,,,ralt,1.1136184989882167,I_V_JakubK,001,2019_May_22_1059,with_training,3.0.7,None,
21,"[0.15, -0.3]",,,,,,,,,0,39,39,11,,,lalt,1.2218391276546754,I_V_JakubK,001,2019_May_22_1059,with_training,3.0.7,None,
31,"[-0.15, -0.3]",,,,,,,,,0,40,40,39,,,ralt,1.2260917390522081,I_V_JakubK,001,2019_May_22_1059,with_training,3.0.7,None,
22,"[-0.15, 0.3]",,,,,,,,,0,41,41,32,,,lalt,0.9559337935352232,I_V_JakubK,001,2019_May_22_1059,with_training,3.0.7,None,
32,"[-0.3, 0]",,,,,,,,,0,42,42,24,,,ralt,1.171797893504845,I_V_JakubK,001,2019_May_22_1059,with_training,3.0.7,None,
11,"[0.15, -0.3]",,,,,,,,,0,43,43,5,,,lalt,0.8231537906976882,I_V_JakubK,001,2019_May_22_1059,with_training,3.0.7,None,
21,"[0.3, 0]",,,,,,,,,0,44,44,7,,,lalt,0.8414054868626408,I_V_JakubK,001,2019_May_22_1059,with_training,3.0.7,None,
21,"[-0.3, 0]",,,,,,,,,0,45,45,6,,,lalt,0.6132496253994759,I_V_JakubK,001,2019_May_22_1059,with_training,3.0.7,None,
22,"[0.15, -0.3]",,,,,,,,,0,46,46,35,,,lalt,0.7555008047784213,I_V_JakubK,001,2019_May_22_1059,with_training,3.0.7,None,
31,"[0.3, 0]",,,,,,,,,0,47,47,37,,,ralt,1.116524812328862,I_V_JakubK,001,2019_May_22_1059,with_training,3.0.7,None,
31,"[-0.3, 0]",,,,,,,,,1,0,48,36,,,ralt,1.194337216875283,I_V_JakubK,001,2019_May_22_1059,with_training,3.0.7,None,
11,"[-0.3, 0]",,,,,,,,,1,1,49,0,,,lalt,0.6238074999128003,I_V_JakubK,001,2019_May_22_1059,with_training,3.0.7,None,
22,"[-0.15, 0.3]",,,,,,,,,1,2,50,32,,,lalt,0.7237480937619694,I_V_JakubK,001,2019_May_22_1059,with_training,3.0.7,None,
32,"[-0.3, 0]",,,,,,,,,1,3,51,42,,,ralt,0.8221860257908702,I_V_JakubK,001,2019_May_22_1059,with_training,3.0.7,None,
31,"[-0.15, -0.3]",,,,,,,,,1,4,52,15,,,ralt,1.1955180953373201,I_V_JakubK,001,2019_May_22_1059,with_training,3.0.7,None,
31,"[-0.3, 0]",,,,,,,,,1,5,53,12,,,ralt,1.4387712102325168,I_V_JakubK,001,2019_May_22_1059,with_training,3.0.7,None,
22,"[0.3, 0]",,,,,,,,,1,6,54,31,,,lalt,0.6628048640850466,I_V_JakubK,001,2019_May_22_1059,with_training,3.0.7,None,
31,"[0.15, 0.3]",,,,,,,,,1,7,55,16,,,ralt,1.0870475261472166,I_V_JakubK,001,2019_May_22_1059,with_training,3.0.7,None,
31,"[0.15, -0.3]",,,,,,,,,1,8,56,41,,,ralt,1.477885696280282,I_V_JakubK,001,2019_May_22_1059,with_training,3.0.7,None,
11,"[-0.15, -0.3]",,,,,,,,,1,9,57,3,,,lalt,0.842707109550247,I_V_JakubK,001,2019_May_22_1059,with_training,3.0.7,None,
21,"[0.15, 0.3]",,,,,,,,,1,10,58,10,,,lalt,0.8760421735350974,I_V_JakubK,001,2019_May_22_1059,with_training,3.0.7,None,
32,"[0.15, 0.3]",,,,,,,,,1,11,59,46,,,ralt,1.1345175121387001,I_V_JakubK,001,2019_May_22_1059,with_training,3.0.7,None,
32,"[0.3, 0]",,,,,,,,,1,12,60,25,,,ralt,1.6236722663743421,I_V_JakubK,001,2019_May_22_1059,with_training,3.0.7,None,
31,"[-0.15, -0.3]",,,,,,,,,1,13,61,39,,,ralt,1.0174650475673843,I_V_JakubK,001,2019_May_22_1059,with_training,3.0.7,None,
21,"[-0.15, 0.3]",,,,,,,,,1,14,62,8,,,lalt,1.1633156121242791,I_V_JakubK,001,2019_May_22_1059,with_training,3.0.7,None,
31,"[-0.15, 0.3]",,,,,,,,,1,15,63,14,,,ralt,1.0821048615325708,I_V_JakubK,001,2019_May_22_1059,with_training,3.0.7,None,
22,"[0.15, 0.3]",,,,,,,,,1,16,64,34,,,lalt,0.7097502164251637,I_V_JakubK,001,2019_May_22_1059,with_training,3.0.7,None,
31,"[0.3, 0]",,,,,,,,,1,17,65,13,,,ralt,1.0504034667974338,I_V_JakubK,001,2019_May_22_1059,with_training,3.0.7,None,
12,"[-0.3, 0]",,,,,,,,,1,18,66,18,,,lalt,0.7088289380481001,I_V_JakubK,001,2019_May_22_1059,with_training,3.0.7,None,
32,"[-0.3, 0]",,,,,,,,,1,19,67,24,,,ralt,1.1828097662655637,I_V_JakubK,001,2019_May_22_1059,with_training,3.0.7,None,
12,"[-0.15, -0.3]",,,,,,,,,1,20,68,21,,,lalt,0.6102014375792351,I_V_JakubK,001,2019_May_22_1059,with_training,3.0.7,None,
32,"[0.15, -0.3]",,,,,,,,,1,21,69,47,,,ralt,0.9158467127999756,I_V_JakubK,001,2019_May_22_1059,with_training,3.0.7,None,
32,"[0.15, -0.3]",,,,,,,,,1,22,70,29,,,None,,I_V_JakubK,001,2019_May_22_1059,with_training,3.0.7,None,
21,"[-0.3, 0]",,,,,,,,,1,23,71,6,,,lalt,0.7264527642691974,I_V_JakubK,001,2019_May_22_1059,with_training,3.0.7,None,
31,"[-0.15, 0.3]",,,,,,,,,1,24,72,38,,,ralt,1.3073115454462823,I_V_JakubK,001,2019_May_22_1059,with_training,3.0.7,None,
31,"[0.15, -0.3]",,,,,,,,,1,25,73,17,,,ralt,1.0989148716907948,I_V_JakubK,001,2019_May_22_1059,with_training,3.0.7,None,
31,"[0.15, 0.3]",,,,,,,,,1,26,74,40,,,ralt,0.9164570748107508,I_V_JakubK,001,2019_May_22_1059,with_training,3.0.7,None,
32,"[0.15, 0.3]",,,,,,,,,1,27,75,28,,,ralt,1.1712925789470319,I_V_JakubK,001,2019_May_22_1059,with_training,3.0.7,None,
22,"[0.15, -0.3]",,,,,,,,,1,28,76,35,,,lalt,0.982964801864,I_V_JakubK,001,2019_May_22_1059,with_training,3.0.7,None,
12,"[0.3, 0]",,,,,,,,,1,29,77,19,,,lalt,0.9524128921038937,I_V_JakubK,001,2019_May_22_1059,with_training,3.0.7,None,
21,"[-0.15, -0.3]",,,,,,,,,1,30,78,9,,,lalt,0.8811665581888519,I_V_JakubK,001,2019_May_22_1059,with_training,3.0.7,None,
31,"[0.3, 0]",,,,,,,,,1,31,79,37,,,ralt,1.1928828527452424,I_V_JakubK,001,2019_May_22_1059,with_training,3.0.7,None,
22,"[-0.15, -0.3]",,,,,,,,,1,32,80,33,,,lalt,0.6924566256639082,I_V_JakubK,001,2019_May_22_1059,with_training,3.0.7,None,
11,"[-0.15, 0.3]",,,,,,,,,1,33,81,2,,,lalt,0.7263000228267629,I_V_JakubK,001,2019_May_22_1059,with_training,3.0.7,None,
32,"[0.3, 0]",,,,,,,,,1,34,82,43,,,ralt,1.1558783719083294,I_V_JakubK,001,2019_May_22_1059,with_training,3.0.7,None,
22,"[-0.3, 0]",,,,,,,,,1,35,83,30,,,lalt,0.7481897422985639,I_V_JakubK,001,2019_May_22_1059,with_training,3.0.7,None,
11,"[0.3, 0]",,,,,,,,,1,36,84,1,,,lalt,0.7772842693375424,I_V_JakubK,001,2019_May_22_1059,with_training,3.0.7,None,
12,"[0.15, 0.3]",,,,,,,,,1,37,85,22,,,lalt,0.9781615968095139,I_V_JakubK,001,2019_May_22_1059,with_training,3.0.7,None,
32,"[-0.15, 0.3]",,,,,,,,,1,38,86,26,,,ralt,1.3418818227946758,I_V_JakubK,001,2019_May_22_1059,with_training,3.0.7,None,
21,"[0.15, -0.3]",,,,,,,,,1,39,87,11,,,lalt,0.667474043002585,I_V_JakubK,001,2019_May_22_1059,with_training,3.0.7,None,
21,"[0.3, 0]",,,,,,,,,1,40,88,7,,,lalt,0.6790105494146701,I_V_JakubK,001,2019_May_22_1059,with_training,3.0.7,None,
11,"[0.15, -0.3]",,,,,,,,,1,41,89,5,,,lalt,1.1405776644824073,I_V_JakubK,001,2019_May_22_1059,with_training,3.0.7,None,
32,"[-0.15, 0.3]",,,,,,,,,1,42,90,44,,,ralt,1.2436189698928501,I_V_JakubK,001,2019_May_22_1059,with_training,3.0.7,None,
11,"[0.15, 0.3]",,,,,,,,,1,43,91,4,,,lalt,0.9750059466459788,I_V_JakubK,001,2019_May_22_1059,with_training,3.0.7,None,
12,"[-0.15, 0.3]",,,,,,,,,1,44,92,20,,,lalt,0.6258818855858408,I_V_JakubK,001,2019_May_22_1059,with_training,3.0.7,None,
32,"[-0.15, -0.3]",,,,,,,,,1,45,93,45,,,ralt,1.3475368783110753,I_V_JakubK,001,2019_May_22_1059,with_training,3.0.7,None,
32,"[-0.15, -0.3]",,,,,,,,,1,46,94,27,,,ralt,1.1929281318443827,I_V_JakubK,001,2019_May_22_1059,with_training,3.0.7,None,
12,"[0.15, -0.3]",,,,,,,,,1,47,95,23,,,lalt,0.7499767567205708,I_V_JakubK,001,2019_May_22_1059,with_training,3.0.7,None,
